<Bundle xmlns="http://hl7.org/fhir" xmlns:xsi="http://www.w3.org/2001/XMLSchema-instance" xsi:schemaLocation="http://hl7.org/fhir ../../STU3/fhir-all-xsd/fhir-single.xsd">
<!-- The use case is for making the encounter involving a CameraObservation available to the Electronic Health Record after an incedent has occurred and the incident is handled.-->
<!-- Digitalt Tilsyn Scenario 1 -->
  <id value="3a015759-a3cd-4112-b6b7-61a0bcd55303" />
  <type value="message" />
  <entry>
    <fullUrl value="urn:uuid:54b44b2e-855a-4f75-904f-9ec865e88020" />
    <resource>
      <MessageHeader>
        <id value="54b44b2e-855a-4f75-904f-9ec865e88020" />
        <event>
          <system value="http://ehelse.no/fhir/CodeSystem/vkp-message-event-v05" />
          <code value="CameraObservation" />
        </event>
        <receiver>
          <identifier>
            <system value="http://ehelse.no/fhir/identifiertypes/HERID" />
            <value value="102287" />
          </identifier>
          <display value="Sykepleietjeneste, pleie- og omsorg" />
        </receiver>
        <sender>
          <identifier>
            <system value="http://ehelse.no/fhir/identifiertypes/HERID" />
            <value value="95341" />
          </identifier>
          <display value="Velferdpoclev1" />
        </sender>
        <timestamp value="2012-01-04T09:10:14+00:00" />
        <source>
          <endpoint value="http://ehelse.no/fhir/identifiertypes/HERID:95341" />
        </source>
        <focus>
        <!-- Reference to the Bundle entry containing the Composition -->
          <reference value="urn:uuid:1f214b1f-ca8c-43fc-9a0f-341fad53e32b" />
          <display value="Composition" />
        </focus>
        <focus>
        <!-- Reference to the Bundle entry containing the Encounter -->
          <reference value="urn:uuid:41d3d995-3afe-421e-bbb7-7b2126ce455b" />
          <display value="Encounter" />
        </focus>
      </MessageHeader>
    </resource>
  </entry>
  <entry>
	<fullUrl value="urn:uuid:1f214b1f-ca8c-43fc-9a0f-341fad53e32b"/>
		<resource>
			<!-- Have to define when Composition is to be used in this use-case -->
			<Composition>
				<id value="1f214b1f-ca8c-43fc-9a0f-341fad53e32b"/>
				<status value="final"/>
				<!-- Status er alltid final når Composition sendes første gang, kan ha andre statuser hvis man ønsker å endre på avsendt Composition (amended og entered in error) -->
				<type>
					<coding>
						<code value="11488-4"/>
						<!-- LOINC kode, mer enn tusen koder å velge mellom, her er det mulig å benytte eget kodeverk som er gjenkjennbart for norske EPJ -->
						<display value="Consult note"/>
					</coding>
				</type>
				<subject>
					<!-- Referanse til pasient obligatorisk i Composition-->
					 <identifier>
						<system value="urn:oid:2.16.578.1.12.4.1.4.1" />
						<value value="05073500186" />
					</identifier>
					  <display value="Ærlend Sørgård" />
				</subject>
				<date value="2017-05-09T10:30:00.936+02:00"/>
				<!-- Timestamp for journalnotatet, må være senere enn hendelsen-->
				<author>
					<!-- Behandleren som har skrevet notatet -->
					<identifier>
						<system value="urn:oid:2.16.578.1.12.4.1.4.1"/>
						<value value="04056600324"/>
					</identifier>
					<display value="Magnar Koman"/>
				</author>
				<title value="Journalnotat for Kameraobservasjon"/>
				<section>
					<text>
						<!-- Selve notatet-->
						<status value="additional"/>
						<!-- Will always be additional as this is notes written by humans in addition to the structured information referenced below -->
						<div xmlns="http://www.w3.org/1999/xhtml">
							XHTML strukturert tekstinformasjon
						</div>
					</text>
					<entry>
						<!-- A reference to the identifier of the data that supports this section. In this case the encounter -->
						<reference value="urn:uuid:9c1ce08f-9ac7-4b4d-9d08-281c9f54ddfb"/>
						<display value="Encounter"/>
					</entry>
				</section>
			</Composition>
		</resource>
	</entry>
  <entry>
    <fullUrl value="urn:uuid:41d3d995-3afe-421e-bbb7-7b2126ce455b" />
    <resource>
    <Encounter>
		 <id value="41d3d995-3afe-421e-bbb7-7b2126ce455b" />
        <!--<meta>
			<profile value="http://ehelse.no/fhir/StructureDefinition/vkp-MedicationDispense-v05"/>
		</meta> -->
        <identifier>
        <!--  Unique identification of the encounter as desided by the system --> 
          <system value="http://acme.no/cameraobservation-identifier" />
          <value value="urn:uuid:9c1ce08f-9ac7-4b4d-9d08-281c9f54ddfb" />
        </identifier>
        <!-- The status of the encounter. Reported encounter should be finished. -->
		<status value="finished"/>
		<!-- The encounter type, we suggest using predefined codes from http://ehelse.no/fhir/CodeSystem/vkp-encounter-camera-reason-v05 -->
		<type>
			<coding>
				<system value="http://ehelse.no/fhir/CodeSystem/vkp-encounter-camera-events-v05"/>
				<code value="2"/>
				<display value="visuelt_tilsyn"/>
			</coding>
		</type>
        <subject>
        <!-- Reference to the patient that is subject to the encounter, identified by Norwegian Fødselsnummer-->
          <identifier>
            <system value="urn:oid:2.16.578.1.12.4.1.4.1" />
            <value value="05073500186" />
          </identifier>
          <display value="Ærlend Sørgård" />
        </subject>
        <participant>
		<!-- Refernce to the individual that participated in the encounter, usually health care provider. Identified using Norwegian Fødselsnummer -->
			<individual>
				<identifier>
					<system value="urn:oid:2.16.578.1.12.4.1.4.1"/>
					<value value="04056600324"/>
				</identifier>
				<display value="Magnar Koman"/>
			  </individual>
		  </participant>
		  <period>
		  <!-- Timestamp of when the encounter was finished, the system could provide both start and end times -->
			  <end value="2018-06-25T10:00:00.936+02:00"/>
		  </period>
		  <reason>
		  <!-- Reason the encounter takes place, coded according to http://ehelse.no/fhir/CodeSystem/vkp-encounter-camera-reason-v05 -->
				<coding>
					<system value="http://ehelse.no/fhir/CodeSystem/vkp-encounter-camera-reason-v05"/>
					<code value="4"/>
					<display value="reist_seg_fra_stol"/>
				</coding>
		  </reason>
      </Encounter>
    </resource>
  </entry>
</Bundle>